File: machine_learning/hw2/Concrete_Data.csv
Cement (%),Slag (%),Fly ash (%),Coarse aggregate (%),Fine aggregate (%),W/CM,Superplasticizer dosage,Age (days),Compressive strength (MPa)
23.9362,0,0,46.0993,29.9645,0.3,0.00462963,28,79.99
16.6167,7.12144,0,46.5767,29.6852,0.48,0,270,40.27
9.30254,6.2017,0,45.8288,38.6669,0.58006,0,360,44.3
18.9905,4.74763,0,46.5767,29.6852,0.48,0,365,43.7
13.4208,5.75177,0,47.0232,33.8042,0.6,0,28,45.85
9.30254,6.2017,0,45.8288,38.6669,0.58006,0,90,38.07
21.3643,2.37381,0,46.5767,29.6852,0.48,0,270,43.01
15.338,3.83451,0,47.0232,33.8042,0.6,0,28,47.81
6.3371,9.50565,0,47.5283,36.629,0.550143,0,90,39.36
18.9905,4.74763,0,46.5767,29.6852,0.48,0,90,40.56
21.3643,2.37381,0,46.5767,29.6852,0.48,0,180,41.84
6.3371,9.50565,0,47.5283,36.629,0.550143,0,3,8.06
19.1726,0,0,47.0232,33.8042,0.6,0,365,52.52
18.9905,4.74763,0,46.5767,29.6852,0.48,0,270,41.15
21.3643,2.37381,0,46.5767,29.6852,0.48,0,28,37.43
15.338,3.83451,0,47.0232,33.8042,0.6,0,365,55.26
9.30254,6.2017,0,45.8288,38.6669,0.58006,0,180,41.72
9.58628,9.58628,0,47.0232,33.8042,0.6,0,365,53.69
11.8691,11.8691,0,46.5767,29.6852,0.48,0,28,30.08
23.7381,0,0,46.5767,29.6852,0.48,0,90,42.23
17.2553,1.91726,0,47.0232,33.8042,0.6,0,90,50.46
11.8691,11.8691,0,46.5767,29.6852,0.48,0,365,39
21.3643,2.37381,0,46.5767,29.6852,0.48,0,90,41.54
15.8428,0,0,47.5283,36.629,0.550143,0,3,15.05
11.8691,11.8691,0,46.5767,29.6852,0.48,0,7,26.26
16.6167,7.12144,0,46.5767,29.6852,0.48,0,180,39.78
11.8691,11.8691,0,46.5767,29.6852,0.48,0,90,33.12
6.3371,9.50565,0,47.5283,36.629,0.550143,0,7,14.59
23.7381,0,0,46.5767,29.6852,0.48,0,365,41.93
15.338,3.83451,0,47.0232,33.8042,0.6,0,180,50.95
15.338,3.83451,0,47.0232,33.8042,0.6,0,270,54.38
14.5431,0,0,45.5526,39.9043,0.619355,0,3,9.87
13.4208,5.75177,0,47.0232,33.8042,0.6,0,180,48.7
6.3371,9.50565,0,47.5283,36.629,0.550143,0,360,44.7
9.58628,9.58628,0,47.0232,33.8042,0.6,0,28,40.86
16.6518,8.42386,0,41.2333,33.691,0.302024,0.0179332,3,34.4
18.7183,4.68179,0,37.5292,39.0707,0.288914,0.0310559,3,33.4
16.2092,4.05446,0,36.8316,42.9047,0.270051,0.0499147,3,29
20.581,5.14306,0,37.3925,36.8834,0.235073,0.0549301,3,40.2
17.1681,4.28982,0,37.6452,40.8968,0.325098,0.0249125,3,28.1
18.7183,4.68179,0,37.5292,39.0707,0.288914,0.0310559,3,33.4
17.5046,4.12564,0,41.2477,37.1221,0.296878,0.0229607,3,41.1
14.653,12.8016,0,42.6735,29.8719,0.30305,0.0169827,3,28.3
16.1005,8.39217,0,41.9475,33.5598,0.298949,0.0210297,3,35.3
16.1005,8.39217,0,41.9475,33.5598,0.298949,0.0210297,3,35.3
17.1054,8.29166,0,41.4451,33.1578,0.25203,0.0380031,3,40.6
15.1702,8.48523,0,42.4127,33.9319,0.331942,0.01803,3,24.1
14.0229,11.7357,0,46.8579,27.3834,0.304952,0.0149435,7,42.8
18.7142,4.68076,0,41.2153,35.3897,0.284961,0.03500847,7,46.8
21.3253,5.33357,0,38.2554,35.0858,0.304985,0.0149882,7,55.6
18.7183,4.68179,0,37.5292,39.0707,0.288914,0.0310559,7,49.2
23.3323,0,0,37.4204,39.2473,0.266893,0.0530774,7,46.9
14.0825,9.38687,0,37.6403,38.8904,0.293055,0.0269151,7,33.4
16.1005,8.39217,0,41.9475,33.5598,0.298949,0.0210297,7,55.9
16.7181,6.66079,0,49.9692,26.652,0.289994,0.02996043,7,47.1
12.4722,8.75191,0,43.7639,35.012,0.297003,0.0229885,7,38
19.875,8.0134,0,40.0625,32.0491,0.301948,0.0180195,7,56.1
16.1005,8.39217,0,41.9475,33.5598,0.298949,0.0210297,7,22.9
16.6518,8.42386,0,41.2333,33.691,0.302024,0.0179332,28,61.09
18.7183,4.68179,0,37.5292,39.0707,0.288914,0.0310559,28,60.29
16.2092,4.05446,0,36.8316,42.9047,0.270051,0.0499147,28,56.7
20.581,5.14306,0,37.3925,36.8834,0.235073,0.0549301,28,66.9
17.1681,4.28982,0,37.6452,40.8968,0.325098,0.0249125,28,50.7
18.7183,4.68179,0,37.5292,39.0707,0.288914,0.0310559,28,60.29
17.5046,4.12564,0,41.2477,37.1221,0.296878,0.0229607,28,68.5
14.653,12.8016,0,42.6735,29.8719,0.30305,0.0169827,28,74.7
16.1005,8.39217,0,41.9475,33.5598,0.298949,0.0210297,28,71.3
16.1005,8.39217,0,41.9475,33.5598,0.298949,0.0210297,28,71.3
17.1054,8.29166,0,41.4451,33.1578,0.25203,0.0380031,28,74.5
15.1702,8.48523,0,42.4127,33.9319,0.331942,0.01803,28,49.9
14.0229,11.7357,0,46.8579,27.3834,0.304952,0.0149435,56,64.9
18.7142,4.68076,0,41.2153,35.3897,0.284961,0.03500847,56,64.9
21.3253,5.33357,0,38.2554,35.0858,0.304985,0.0149882,56,72.3
18.7183,4.68179,0,37.5292,39.0707,0.288914,0.0310559,56,64.3
23.3323,0,0,37.4204,39.2473,0.266893,0.0530774,56,58.8
14.0825,9.38687,0,37.6403,38.8904,0.293055,0.0269151,56,66.1
16.1005,8.39217,0,41.9475,33.5598,0.298949,0.0210297,56,77.3
16.7181,6.66079,0,49.9692,26.652,0.289994,0.02996043,56,54.9
12.4722,8.75191,0,43.7639,35.012,0.297003,0.0229885,56,72.99
19.875,8.0134,0,40.0625,32.0491,0.301948,0.0180195,56,71.7
16.1005,8.39217,0,41.9475,33.5598,0.298949,0.0210297,56,77.3
16.6518,8.42386,0,41.2333,33.691,0.302024,0.0179332,91,64.9
18.7183,4.68179,0,37.5292,39.0707,0.288914,0.0310559,91,65.2
16.2092,4.05446,0,36.8316,42.9047,0.270051,0.0499147,91,62.5
20.581,5.14306,0,37.3925,36.8834,0.235073,0.0549301,91,70.7
17.1681,4.28982,0,37.6452,40.8968,0.325098,0.0249125,91,57.6
18.7183,4.68179,0,37.5292,39.0707,0.288914,0.0310559,91,65.2
17.5046,4.12564,0,41.2477,37.1221,0.296878,0.0229607,91,75.5
16.7181,6.66079,0,49.9692,26.652,0.289994,0.02996043,91,56.5
12.4722,8.75191,0,43.7639,35.012,0.297003,0.0229885,91,76.8
19.875,8.0134,0,40.0625,32.0491,0.301948,0.0180195,91,73.3
16.1005,8.39217,0,41.9475,33.5598,0.298949,0.0210297,91,79.3
10.3115,0,4.48287,44.8463,40.3593,0.59333,0.0139799,3,11.58
10.3115,0,4.48287,44.8463,40.3593,0.59333,0.0139799,28,24.89
10.3115,0,4.48287,44.8463,40.3593,0.59333,0.0139799,100,40.71
10.9894,0,4.44541,44.5123,40.0528,0.602607,0.0139072,14,22.14
10.9894,0,4.44541,44.5123,40.0528,0.602607,0.0139072,56,27.66
8.81903,0,4.55357,45.59,41.0374,0.561043,0.0253388,3,12.45
8.81903,0,4.55357,45.59,41.0374,0.561043,0.0253388,28,25.72
8.81903,0,4.55357,45.59,41.0374,0.561043,0.0253388,100,37.34
8.6277,0,5.67398,49.3193,36.3791,0.5129714,0.0245824,14,21.06
8.6277,0,5.67398,49.3193,36.3791,0.5129714,0.0245824,56,35.34
9.77006,0,5.60303,48.7236,35.9033,0.540352,0.0170518,3,12.47
9.77006,0,5.60303,48.7236,35.9033,0.540352,0.0170518,28,24.9
9.77006,0,5.60303,48.7236,35.9033,0.540352,0.0170518,100,39.61
10.765,0,5.53816,48.1868,35.51,0.561244,0.0132939,14,20.08
10.765,0,5.53816,48.1868,35.51,0.561244,0.0132939,56,31.54
8.62747,0,5.67398,49.3199,36.3787,0.512963,0.0313134,3,9.45
8.62747,0,5.67398,49.3199,36.3787,0.512963,0.0313134,28,28.47
8.62747,0,5.67398,49.3199,36.3787,0.512963,0.0313134,100,40.39
7.6608,0,7.53073,48.8273,35.9812,0.535766,0.0136325,14,25.48
7.6608,0,7.53073,48.8273,35.9812,0.535766,0.0136325,56,28.63
7.59038,1.90177,7.40418,47.8472,35.2565,0.325657,0.0152998,3,7.75
7.59038,1.90177,7.40418,47.8472,35.2565,0.325657,0.0152998,28,24.24
7.59038,1.90177,7.40418,47.8472,35.2565,0.325657,0.0152998,100,39.23
9.77024,4.48237,1.12048,48.7232,35.9037,0.540353,0.0203997,14,30.39
9.77024,4.48237,1.12048,48.7232,35.9037,0.540353,0.0203997,56,50.77
9.77028,4.48201,1.12073,48.7234,35.9036,0.540346,0.01977166,3,13.18
9.77028,4.48201,1.12073,48.7234,35.9036,0.540346,0.01977166,28,40.23
9.77028,4.48201,1.12073,48.7234,35.9036,0.540346,0.01977166,100,49.97
10.7651,0,5.53814,48.1868,35.51,0.561264,0.017623,14,22.32
10.7651,0,5.53814,48.1868,35.51,0.561264,0.017623,56,31.35
11.1809,0,4.42022,44.616,39.7829,0.561958,0.0210742,3,19.93
11.1809,0,4.42022,44.616,39.7829,0.561958,0.0210742,28,30.23
11.1809,0,4.42022,44.616,39.7829,0.561958,0.0210742,100,44.3
11.5542,0,4.42248,44.2229,39.8004,0.542162,0.015997,14,24.92
11.5542,0,4.42248,44.2229,39.8004,0.542162,0.015997,56,38.33
9.55455,0,4.51247,45.309,40.6239,0.509189,0.0278373,3,13.54
9.55455,0,4.51247,45.309,40.6239,0.509189,0.0278373,28,31.64
9.55455,0,4.51247,45.309,40.6239,0.509189,0.0278373,100,42.92
9.57285,0,4.52095,45.205,40.7012,0.509171,0.0331352,14,25.37
9.57285,0,4.52095,45.205,40.7012,0.509171,0.0331352,56,44.4
9.54216,0,5.61637,48.854,35.9874,0.472118,0.0232793,3,19.52
9.54216,0,5.61637,48.854,35.9874,0.472118,0.0232793,28,38.5
9.54216,0,5.61637,48.854,35.9874,0.472118,0.0232793,100,47.82
10.5908,0,5.55794,48.2767,35.5746,0.492289,0.0190169,14,26.77
10.5908,0,5.55794,48.2767,35.5746,0.492289,0.0190169,56,42.7
11.6603,0,5.48621,47.7045,35.1489,0.50982,0.0155557,3,17.22
11.6603,0,5.48621,47.7045,35.1489,0.50982,0.0155557,28,29.65
11.6603,0,5.48621,47.7045,35.1489,0.50982,0.0155557,100,43.58
11.6603,0,5.48621,47.7045,35.1489,0.50982,0.0171789,14,24.43
11.6603,0,5.48621,47.7045,35.1489,0.50982,0.0171789,56,36.64
8.31336,0,7.65472,48.3823,35.6496,0.486782,0.0216998,3,13.62
8.31336,0,7.65472,48.3823,35.6496,0.486782,0.0216998,28,27.77
8.31336,0,7.65472,48.3823,35.6496,0.486782,0.0216998,100,45.37
8.3151,2.06507,5.57126,48.3906,35.658,0.4874,0.0234523,14,21.5
8.3151,2.06507,5.57126,48.3906,35.658,0.4874,0.0234523,56,43.5
7.63368,1.90842,5.61633,48.8541,35.9874,0.472134,0.0322946,3,7.4
7.63368,1.90842,5.61633,48.8541,35.9874,0.472134,0.0322946,28,31.12
7.63368,1.90842,5.61633,48.8541,35.9874,0.472134,0.0322946,100,48.15
13.1219,0,4.34671,43.439,39.0923,0.434843,0.0243448,14,34.67
13.1219,0,4.34671,43.439,39.0923,0.434843,0.0243448,56,45.08
12.4576,0,4.37915,43.7915,39.3718,0.428907,0.0315938,3,23.14
12.4576,0,4.37915,43.7915,39.3718,0.428907,0.0315938,28,48.28
12.4576,0,4.37915,43.7915,39.3718,0.428907,0.0315938,100,55.64
13.4067,0,4.33606,43.3035,38.9538,0.438329,0.0226651,14,35.23
13.4067,0,4.33606,43.3035,38.9538,0.438329,0.0226651,56,48.72
11.1543,0,4.427,44.5624,39.8563,0.415466,0.0351102,3,21.02
11.1543,0,4.427,44.5624,39.8563,0.415466,0.0351102,28,33.94
11.1543,0,4.427,44.5624,39.8563,0.415466,0.0351102,100,45.37
11.1974,0,4.43896,44.4013,39.9623,0.454535,0.03679747,14,28.68
11.1974,0,4.43896,44.4013,39.9623,0.454535,0.03679747,56,42.03
11.3254,0,4.43256,44.3373,39.9048,0.416595,0.0403635,3,21.78
11.3254,0,4.43256,44.3373,39.9048,0.416595,0.0403635,28,50.6
11.3254,0,4.43256,44.3373,39.9048,0.416595,0.0403635,100,60.95
10.9236,0,5.53549,48.097,35.4439,0.385308,0.032239,14,42.22
10.9236,0,5.53549,48.097,35.4439,0.385308,0.032239,56,60.32
12.3487,0,5.44776,47.2992,34.9043,0.402301,0.0249735,3,23.8
12.3487,0,5.44776,47.2992,34.9043,0.402301,0.0249735,28,51.33
12.3487,0,5.44776,47.2992,34.9043,0.402301,0.0249735,100,58.61
13.5631,0,5.3648,46.6829,34.3892,0.42151,0.0229564,14,36.99
13.5631,0,5.3648,46.6829,34.3892,0.42151,0.0229564,56,51.96
9.63518,0,7.8771,47.4907,34.997,0.39845,0.0261532,3,17.57
9.63518,0,7.8771,47.4907,34.997,0.39845,0.0261532,28,40.15
9.63518,0,7.8771,47.4907,34.997,0.39845,0.0261532,100,50.08
9.63656,0,7.86452,47.4968,35.0022,0.398747,0.0300717,14,33.7
9.63656,0,7.86452,47.4968,35.0022,0.398747,0.0300717,56,51.43
12.3545,4.3599,1.0902,47.3206,34.8747,0.402283,0.0280121,3,30.45
12.3545,4.3599,1.0902,47.3206,34.8747,0.402283,0.0280121,28,63.14
12.3545,4.3599,1.0902,47.3206,34.8747,0.402283,0.0280121,100,66.95
9.63479,2.41234,5.46485,47.4919,34.9962,0.354847,0.0300265,14,35.96
9.63479,2.41234,5.46485,47.4919,34.9962,0.354847,0.0300265,56,61.99
9.83313,2.46171,5.57729,46.4111,35.7168,0.398449,0.0246038,3,18.02
9.83313,2.46171,5.57729,46.4111,35.7168,0.398449,0.0246038,28,52.2
9.83313,2.46171,5.57729,46.4111,35.7168,0.398449,0.0246038,100,56.63
9.87327,0,5.60004,48.6648,35.8618,0.462097,0.033034,14,26.05
9.87327,0,5.60004,48.6648,35.8618,0.462097,0.033034,56,37.27
17.5548,0,0,46.8518,35.5934,0.570745,0,3,16.28
17.5548,0,0,46.8518,35.5934,0.570745,0,28,31.97
17.5548,0,0,46.8518,35.5934,0.570745,0,100,43.06
20.8975,0,2.59569,48.3062,28.2006,0.265918,0.003558052,28,57.23
22.6966,0,2.69663,46.2921,28.3146,0.345133,0,28,64.02
24.3511,0,0,37.8008,37.848,0.313953,0.0158915,28,41.37
24.3542,0,0,42.4354,33.2103,0.350379,0.0129924,28,56.83
17.5639,0,6.20438,41.1953,35.0365,0.303263,0.0383877,28,55.55
20.1144,2.23444,0,50.248,27.4031,0.39992,0.0059988,28,39.38
15.406,0.809623,7.54106,46.0791,30.1642,0.325219,0.0348588,28,47.28
18.2432,0,0,50.4505,31.3063,0.432099,0,28,52.3
24.3511,0,0,37.8008,37.848,0.313953,0.0160078,28,41.37
7.57217,6.05774,5.77378,38.9967,41.5996,0.443902,0.0156098,28,39.4
11.4416,8.23799,4.34783,39.3593,36.6133,0.302857,0.018,28,67.87
13.0078,8.67184,0,47.0561,31.2643,0.343158,0.016,28,53.58
12.6728,8.29493,5.52995,38.2488,35.2535,0.281739,0.018,28,76.24
7.44891,0.000902898,6.48145,45.3977,40.671,0.530834,0,3,14.4
8.16453,5.95268,5.43904,46.1952,34.2486,0.421968,0.008371831,3,20.73
7.76116,0.61277,7.76071,45.3072,38.5582,0.437437,0.0115526,3,21.29
7.63673,3.44796,7.63673,46.0627,35.2158,0.40066,0.019321,3,15.52
8.67777,0,5.70707,49.1926,36.4226,0.528049,0.0313134,3,12.55
9.69027,0,7.90835,47.3666,35.0348,0.41061,0.0300717,3,15.61
11.597,0,5.45642,48.1467,34.7998,0.521967,0.0155557,3,11.98
7.57576,5.89991,6.0652,46.18,34.2792,0.411325,0.018985,14,33.09
7.68094,5.96208,5.90333,46.1866,34.267,0.412004,0.018292,14,31.81
7.8996,2.27829,7.89915,45.8026,36.1204,0.414912,0.0162923,14,33.01
7.96972,4.2813,7.3319,46.1832,34.2339,0.403531,0.0227826,14,29.55
11.6182,0,4.447,44.0982,39.8366,0.554948,0.0154184,14,24.66
8.86925,0,4.5795,45.467,41.0843,0.576457,0.0253388,14,24.28
7.44891,0.000902898,6.48145,45.3977,40.671,0.530834,0,28,26.2
8.16453,5.95268,5.43904,46.1952,34.2486,0.421968,0.008371831,28,39.16
7.76116,0.61277,7.76071,45.3072,38.5582,0.437437,0.0115526,28,33.69
7.63673,3.44796,7.63673,46.0627,35.2158,0.40066,0.019321,28,41.41
8.67777,0,5.70707,49.1926,36.4226,0.528049,0.0313134,28,24.85
9.69027,0,7.90835,47.3666,35.0348,0.41061,0.0300717,28,44.64
11.597,0,5.45642,48.1467,34.7998,0.521967,0.0155557,28,33.27
7.57576,5.89991,6.0652,46.18,34.2792,0.411325,0.018985,56,53.72
7.68094,5.96208,5.90333,46.1866,34.267,0.412004,0.018292,56,51.72
7.8996,2.27829,7.89915,45.8026,36.1204,0.414912,0.0162923,56,53.77
7.96972,4.2813,7.3319,46.1832,34.2339,0.403531,0.0227826,56,48.99
11.6182,0,4.447,44.0982,39.8366,0.554948,0.0154184,56,39.64
8.86925,0,4.5795,45.467,41.0843,0.576457,0.0253388,56,43.39
7.44891,0.000902898,6.48145,45.3977,40.671,0.530834,0,100,37.96
8.16453,5.95268,5.43904,46.1952,34.2486,0.421968,0.008371831,100,49.99
7.76116,0.61277,7.76071,45.3072,38.5582,0.437437,0.0115526,100,37.68
7.63673,3.44796,7.63673,46.0627,35.2158,0.40066,0.019321,100,56.81
8.67777,0,5.70707,49.1926,36.4226,0.528049,0.0313134,100,33.56
9.69027,0,7.90835,47.3666,35.0348,0.41061,0.0300717,100,52.96
11.597,0,5.45642,48.1467,34.7998,0.521967,0.0155557,100,40.15
20.018,1.0772,3.54578,43.4022,31.9569,0.295082,0.0212022,28,44.42
20.018,1.0772,3.54578,43.4022,31.9569,0.295082,0.0187614,28,53.39
20.018,1.0772,3.54578,43.4022,31.9569,0.295082,0.0212022,3,25.02
20.018,1.0772,3.54578,43.4022,31.9569,0.295082,0.0211475,7,52.01
20.018,1.0772,3.54578,43.4022,31.9569,0.295082,0.0212022,7,39.3
20.018,1.0772,3.54578,43.4022,31.9569,0.295082,0.0212022,56,56.14
20.018,1.0772,3.54578,43.4022,31.9569,0.295082,0.0187614,56,54.77
16.944,0.875657,4.11559,41.0683,36.9965,0.313373,0.0278044,28,46.68
16.944,0.875657,4.11559,41.0683,36.9965,0.313373,0.0285828,3,22.75
16.944,0.875657,4.11559,41.0683,36.9965,0.313373,0.0231737,3,34.77
16.944,0.875657,4.11559,41.0683,36.9965,0.313373,0.0278044,7,45.9
16.944,0.875657,4.11559,41.0683,36.9965,0.313373,0.0285828,56,56.34
16.944,0.875657,4.11559,41.0683,36.9965,0.313373,0.0231737,56,61.46
15.3746,0.822867,4.20095,41.8796,37.722,0.307856,0.0260085,28,55.45
22.721,1.20315,5.69181,38.0379,32.3461,0.3140625,0.006140625,28,57.92
22.1072,1.17064,5.53805,39.7118,31.4723,0.328125,0.006140625,7,33.49
22.721,1.20315,5.69181,38.0379,32.3461,0.3140625,0.006140625,3,29.55
22.721,1.20315,5.69181,38.0379,32.3461,0.3140625,0.006140625,56,61.86
19.1855,0.995475,5.97285,39.9095,33.9367,0.307958,0.01467128,3,32.01
19.7209,1.02326,6.13953,38.2326,34.8837,0.307958,0.01467128,7,39
19.7209,1.02326,6.13953,38.2326,34.8837,0.290657,0.0154325,3,32.11
19.7209,1.02326,6.13953,38.2326,34.8837,0.290657,0.0154325,56,74.36
9.63281,0.524559,6.72389,44.9213,38.1974,0.581921,0.004858757,3,9.85
9.63281,0.524559,6.72389,44.9213,38.1974,0.581921,0.004858757,56,23.25
13.6342,0.720115,6.76908,40.4225,38.4542,0.406818,0.0124091,3,13.4
13.6342,0.720115,6.76908,40.4225,38.4542,0.406818,0.0124091,56,44.52
15.8709,0.839965,6.23342,41.6446,35.4111,0.296724,0.0210212,28,59.49
15.8709,0.839965,6.23342,41.6446,35.4111,0.296724,0.0210212,3,23.64
15.8709,0.839965,6.23342,41.6446,35.4111,0.296724,0.0210212,7,38.61
15.8709,0.839965,6.23342,41.6446,35.4111,0.296724,0.0210212,56,66.78
13.7783,0,0,43.5375,42.6841,0.66436,0,90,32.07
18.5447,0,0,44.3847,37.0706,0.48855,0,3,19.2
18.5447,0,0,44.3847,37.0706,0.48855,0,28,39.6
22.5522,0,0,43.9861,33.4618,0.4,0,7,34.57
22.5522,0,0,43.9861,33.4618,0.4,0,3,24.4
12.2021,0,0,42.5782,45.2196,0.752941,0,90,21.86
13.7783,0,0,43.5375,42.6841,0.66436,0,7,14.6
15.806,0,0,44.1997,39.9943,0.576577,0,28,31.97
13.7783,0,0,43.5375,42.6841,0.66436,0,28,25.57
18.5447,0,0,44.3847,37.0706,0.48855,0,7,27.74
7.31157,10.9674,0,47.912,33.8091,0.467758,0,7,9.62
10.9674,7.31157,0,47.912,33.8091,0.467758,0,7,15.69
8.85097,13.2742,0,45.6591,32.2157,0.383916,0,28,32.63
12.5057,8.33868,0,46.4106,32.745,0.408401,0,7,19.77
10.1878,6.79186,0,48.6781,34.3423,0.50462,0,28,25.75
17.63,0,0,48.2946,34.0754,0.48549,0,7,24.07
7.31157,10.9674,0,47.912,33.8091,0.467758,0,28,21.07
11.738,7.82377,0,47.1631,33.2751,0.43612,0,28,32.05
18.2789,0,0,47.912,33.8091,0.467758,0,7,25.45
13.7167,0,0,50.6098,35.6735,0.627789,0,28,25.22
10.1878,6.79186,0,48.6781,34.3423,0.50462,0,7,13.09
6.23994,9.35761,0,49.4873,34.9152,0.547465,0,7,7.51
15.6841,0,0,49.4382,34.8777,0.547465,0,7,21.18
8.85097,13.2742,0,45.6591,32.2157,0.383916,0,7,17.2
13.2742,8.85097,0,45.6591,32.2157,0.383916,0,7,21.86
8.20051,7.48784,0,49.4342,34.8774,0.569982,0,28,25.73
10.3627,15.5486,0,43.4415,30.6472,0.325732,0,7,21.92
16.7995,0,0,48.6544,34.5461,0.48689,0,7,14.54
8.62836,5.7507,0,50.2039,35.4171,0.598453,0,7,8
11.094,0,0,52.1293,36.7766,0.779924,0,7,10.34
17.63,0,0,48.2946,34.0754,0.48549,0,28,37.44
14.4134,9.60741,0,44.5488,31.4304,0.352506,0,7,24.44
8.20051,7.48784,0,49.4342,34.8774,0.569982,0,7,10.73
16.2356,0,0,46.3602,37.4042,0.581121,0,3,13.22
16.2356,0,0,46.3602,37.4042,0.581121,0,14,27.04
16.2356,0,0,46.3602,37.4042,0.581121,0,90,35.17
16.2356,0,0,46.3602,37.4042,0.581121,0,365,38.89
11.2973,0,0,46.338,42.3648,0.822034,0,14,12.84
11.2973,0,0,46.338,42.3648,0.822034,0,90,21.95
11.2973,0,0,46.338,42.3648,0.817797,0,365,25.08
13.1842,0,0,46.0733,40.7425,0.689531,0,28,25.97
13.1842,0,0,46.0733,40.7425,0.689531,0,90,31.25
13.1842,0,0,46.0733,40.7425,0.689531,0,360,33.7
12.1823,0,0,46.4269,41.3909,0.779528,0,90,26.94
12.1823,0,0,46.4269,41.3909,0.779528,0,365,29.79
14.7101,0,0,46.3824,38.9075,0.628664,0,365,36.15
14.7101,0,0,46.3824,38.9075,0.628664,0,28,27.53
11.2973,0,0,46.338,42.3648,0.817797,0,7,9.99
9.21659,0,0,51.8433,38.9401,0.9,0,28,12.25
10.3639,0,0,51.2667,38.3694,0.804444,0,28,17.34
14.9701,0,0,48.9636,36.0663,0.566154,0,28,30.57
12.667,0,0,50.1152,37.2179,0.665455,0,28,24.5
13.8249,0,0,49.5392,36.6359,0.613333,0,28,26.85
17.2731,0,0,47.8121,34.9148,0.496,0,28,38.21
18.4332,0,0,47.235,34.3318,0.4675,0,7,30.14
11.5207,0,0,50.6912,37.788,0.728,0,28,20.87
16.129,0,0,48.3871,35.4839,0.531429,0,28,34.29
11.9787,7.98583,0,46.8042,33.2312,0.48801,0,90,47.71
6.81424,10.2238,0,46.8654,36.0966,0.575998,0,28,29.89
5.93762,8.90643,0,46.4064,38.7495,0.663948,0,90,33.19
4.89443,7.34165,0,42.5624,45.2015,0.752941,0,3,4.57
5.93762,8.90643,0,46.4064,38.7495,0.663948,0,28,24.29
9.50299,6.31949,0,45.8709,38.3066,0.576577,0,3,11.41
14.5022,9.66654,0,45.8579,29.9734,0.399961,0,7,25.89
5.54838,8.27474,0,43.5165,42.6604,0.66436,0,90,31.02
7.44217,11.187,0,44.3402,37.0307,0.48855,0,28,33.66
11.9787,7.98583,0,46.8042,33.2312,0.48801,0,7,19.35
9.03147,13.5472,0,43.7368,33.6846,0.4,0,3,12.79
7.33426,4.88951,0,42.5675,45.2088,0.752941,0,3,4.78
14.5022,9.66654,0,45.8579,29.9734,0.399961,0,28,43.38
8.26723,5.54334,0,45.2451,40.9443,0.66436,0,3,6.94
11.16,7.42422,0,45.9923,35.4235,0.48855,0,3,13.57
7.99923,11.9988,0,46.7869,33.215,0.48801,0,7,15.75
13.5224,9.01493,0,43.76,33.7027,0.4,0,28,38.8
4.89443,7.34165,0,42.5624,45.2015,0.752941,0,28,17.28
8.90255,5.93503,0,46.4346,38.7278,0.663948,0,28,24.05
9.03147,13.5472,0,43.7368,33.6846,0.4,0,90,50.73
14.5022,9.66654,0,45.8579,29.9734,0.399961,0,3,14.14
5.26265,7.89154,0,45.5902,41.2556,0.751755,0,3,2.33
13.5224,9.01493,0,43.76,33.7027,0.4,0,7,23.52
10.2085,6.80406,0,46.8724,36.115,0.575998,0,90,39.7
11.16,7.42422,0,45.9923,35.4235,0.48855,0,28,32.88
8.90255,5.93503,0,46.4346,38.7278,0.663948,0,7,10.79
9.68033,14.5229,0,45.82818,29.9686,0.399961,0,28,41.68
6.33454,9.52562,0,44.1703,39.9695,0.576577,0,3,6.88
9.50299,6.31949,0,45.8709,38.3066,0.576577,0,7,17.17
11.9787,7.98583,0,46.8042,33.2312,0.48801,0,3,9.73
7.33426,4.88951,0,42.5675,45.2088,0.752941,0,90,26.32
5.54838,8.27474,0,43.5165,42.6604,0.66436,0,3,6.28
11.9787,7.98583,0,46.8042,33.2312,0.48801,0,28,36.96
9.03147,13.5472,0,43.7368,33.6846,0.4,0,7,21.48
7.33426,4.88951,0,42.5675,45.2088,0.752941,0,7,8.37
5.54838,8.27474,0,43.5165,42.6604,0.66436,0,7,10.09
5.93762,8.90643,0,46.4064,38.7495,0.663948,0,7,10.35
9.68033,14.5229,0,45.82818,29.9686,0.399961,0,90,51.86
14.4052,0,0,47.026,38.5688,0.619355,0,7,17.24
14.4052,0,0,47.026,38.5688,0.619355,0,90,35.76
15.2044,0,0,47.0831,37.7124,0.58006,0,3,14.31
15.2044,0,0,47.0831,37.7124,0.58006,0,28,31.74
15.2044,0,0,47.0831,37.7124,0.58006,0,120,39.38
15.7633,0,0,47.6965,36.5402,0.550143,0,7,9.01
15.7633,0,0,47.6965,36.5402,0.550143,0,90,40.66
11.0904,0,0,52.1435,36.7661,0.781513,0,7,12.05
13.7355,0,0,50.58,35.6845,0.628378,0,7,18.91
14.3409,0,0,50.2173,35.4418,0.626263,0,7,30.96
22.4614,0,0,43.7997,33.7389,0.4,0,90,54.28
13.0153,0,0,51.1348,35.8499,0.661922,0,7,14.5
22.3414,0,0,50.2681,27.3905,0.4,0,1,12.64
22.3414,0,0,50.2681,27.3905,0.4,0,7,33.21
22.3414,0,0,50.2681,27.3905,0.4,0,28,44.09
23.705,0,0,49.3854,26.9096,0.32037,0,14,59.76
23.705,0,0,49.3854,26.9096,0.32037,0,90,69.66
23.705,0,0,49.3854,26.9096,0.32037,0,270,74.17
16.6746,0,0,46.403,36.9223,0.58,0,14,22.53
16.6746,0,0,46.403,36.9223,0.58,0,56,29.98
16.6746,0,0,46.403,36.9223,0.58,0,180,32.72
18.2119,0,0,45.6954,36.0927,0.483117,0,3,14.7
18.2119,0,0,45.6954,36.0927,0.483117,0,14,27.92
15.5108,0,0,45.8294,38.6598,0.58006,0,180,39
15.8492,0,0,47.5477,36.6031,0.550143,0,3,14.99
17.6199,0,0,48.2934,34.0867,0.486911,0,7,24
16.7765,0,0,48.7923,34.4313,0.486911,0,7,11.47
15.6799,0,0,49.445,34.8751,0.545723,0,7,21.16
13.8303,0,0,50.1172,36.0525,0.627119,0,7,14.8
11.0956,0,0,52.1212,36.7832,0.777311,0,28,17.54
13.7931,0,0,50.5592,35.6477,0.648649,0,28,21.65
16.2654,0,0,43.1941,40.5405,0.58006,0,3,13.52
15.5108,0,0,45.8294,38.6598,0.58006,0,28,31.45
15.8492,0,0,47.5477,36.6031,0.550143,0,7,18.13
15.8492,0,0,47.5477,36.6031,0.550143,0,90,39.49
15.8492,0,0,47.5477,36.6031,0.550143,0,360,42.13
14.429,0,0,46.5361,39.0349,0.672185,0,180,26.74
22.3414,0,0,50.2681,27.3905,0.4,0,90,47.22
22.3414,0,0,50.2681,27.3905,0.4,0,270,55.16
11.7373,0,0,51.7466,36.5161,0.734127,0,7,13.71
15.7455,0,0,49.2336,35.0209,0.545723,0,28,31.65
18.7948,0,0,44.9546,36.2506,0.48855,0,28,39.58
17.6199,0,0,48.2934,34.0867,0.484293,0,7,24
11.7373,0,0,51.7466,36.5161,0.738095,0,7,11.47
14.554,0,0,45.5399,39.9061,0.619355,0,7,14.99
14.554,0,0,45.5399,39.9061,0.619355,0,90,34.68
14.554,0,0,45.5399,39.9061,0.619355,0,360,38.11
23.1993,0,0,49.7128,27.0879,0.36,0,7,42.42
23.1993,0,0,49.7128,27.0879,0.36,0,28,55.94
23.1993,0,0,49.7128,27.0879,0.36,0,270,67.11
15.3626,0,0,46.4695,38.1679,0.630435,0,28,25.18
14.429,0,0,46.5361,39.0349,0.672185,0,28,21.75
22.4614,0,0,43.7997,33.7389,0.4,0,3,24.39
22.5583,0,0,38.7208,38.7208,0.279693,0,28,74.99
7.79221,9.13901,7.11881,40.3078,35.6421,0.358,0.038,28,33.76
7.20588,5.63725,4.36275,42.1569,40.6373,0.575499,0.025641,28,19.99
14.5608,6.71677,5.21372,42.931,30.5777,0.297872,0.0390071,28,33.69
14.7501,6.79282,0,43.4255,35.0315,0.481982,0.0135135,28,33.42
7.58226,7.10539,5.53171,45.4459,34.3348,0.412736,0.0353774,28,27.68
14.2791,6.58683,0,42.1004,37.0336,0.370861,0.0220751,28,45.3
7.19733,0,8.77026,47.2355,36.7969,0.498507,0.0358209,28,15.57
14.3614,6.60241,5.15663,42.3133,31.5663,0.370849,0.0110701,28,53.52
17.1509,8.76289,0,38.6129,35.4733,0.345389,0.0126582,28,65.91
12.1096,4.66122,3.65209,40.1249,39.4522,0.456471,0.0188235,28,33.4
7.36196,11.4677,0,48.2303,32.9401,0.451128,0.0275689,28,37.36
14.1972,0,5.09767,41.8771,38.828,0.459259,0.0148148,28,42.64
13.6537,5.75642,4.47193,43.0067,33.1113,0.374502,0.0179283,28,41.94
17.1401,0,6.83678,38.5652,37.4579,0.38755,0.0220884,28,40.87
15.1103,6.99202,0,44.6269,33.2708,0.394904,0.0169851,28,52.42
14.7073,0,5.29274,43.3255,36.6745,0.398126,0.0234192,28,38.46
7.15381,8.38017,6.54062,44.4047,33.5207,0.548611,0.0138889,28,35.23
14.687,0,5.27353,43.3711,36.6683,0.518519,0.0271605,28,31.87
7.45226,11.6442,0,48.8589,32.0447,0.409756,0.0292683,28,39.45
13.0189,5.4717,4.24528,41.0377,36.2264,0.373444,0.0186722,28,44.28
7.20155,6.71822,5.26825,43.1126,37.6994,0.486146,0.01511335,28,23.69
12.6453,4.84496,3.77907,41.8605,36.8702,0.457859,0.0205011,28,32.4
14.7851,0,5.33774,47.3311,32.5461,0.41784,0.0187793,28,36.8
7.03614,11.0843,0,39.8554,42.0241,0.537234,0.007978723,28,33.06
6.37278,10.0623,0,45.472,38.093,0.571429,0.008746356,28,31.03
7.33591,0,5.40541,47.8764,39.3822,0.69697,0.03030303,28,12.18
6.84597,6.50367,5.03667,44.7922,36.8215,0.531915,0.018617,28,36.44
14.8075,0,5.923,43.3366,35.9329,0.504762,0.0238095,28,23.84
6.99103,0,6.47142,47.3311,39.2064,0.554386,0.0561404,28,17.95
7.21698,6.83962,0,47.1698,38.7736,0.597315,0.0268456,28,19.01
8.04481,0,9.92872,45.723,36.3035,0.623229,0.0311615,28,8.54
13.2782,0,4.37743,45.2821,37.0623,0.548209,0.03030303,28,32.24
6.92494,8.18402,6.92494,46.8281,31.138,0.41978,0.0175824,28,29.72
14.5581,7.48837,0,42.6512,35.3023,0.375527,0.021097,28,52.44
15.7083,0,0,46.0963,38.1954,0.541667,0.008928571,28,44.86
7.03895,11.1215,0,50.1642,31.6753,0.449612,0.0310078,28,37.43
15.6575,8.04163,0,38.3633,37.9376,0.389222,0.0159681,28,56.61
7.44119,8.78541,0,42.1027,41.6707,0.571006,0.0266272,28,23.79
12.5472,5.28302,4.10377,42.9245,35.1415,0.382796,0.0215054,28,39.42
13.7281,6.35965,0,43.8596,36.0526,0.277293,0.0174672,28,44.52
6.85388,6.47311,5.04522,44.7882,36.8396,0.46114,0.0181347,28,26.14
13.2093,5.5794,4.33953,45.1121,31.7597,0.393814,0.01443299,28,43.57
14.5649,6.74732,0,46.6263,32.0614,0.388646,0.0174672,28,41.05
13.7162,6.35975,0,43.8538,36.0702,0.460993,0.0141844,28,46.24
7.18889,0,8.87457,40.8528,43.0838,0.623457,0.0246914,28,10.54
6.44244,7.67409,5.96874,43.7234,36.1914,0.40566,0.0235849,28,29.07
12.1486,4.71653,3.66841,43.7828,35.6837,0.438515,0.0139211,28,33.8
6.60194,9.51456,4.75728,41.1165,38.0097,0.462791,0.0139535,28,26.97
7.94118,10.4902,8.03922,40.1961,33.3333,0.374074,0.0185185,28,30.65
7.25414,7.44888,9.44499,45.5209,30.3311,0.387097,0.016129,28,24.58
7.77126,10.2151,7.86901,41.4467,32.6979,0.379962,0.0132325,28,30.88
7.81726,8.83249,9.39086,42.8934,31.066,0.444444,0.0136452,28,24.34
9.17248,4.28714,9.47159,46.012,31.0568,0.463043,0.0130435,28,22.93
12.1587,4.70643,3.66968,43.7744,35.6908,0.617096,0.0149963,28,28.63
7.43409,8.80757,0,50.3001,33.4582,0.571555,0.0269072,28,18.29
14.7978,0,5.3342,40.9539,38.9142,0.549789,0.026074,28,31.42
14.5755,6.74575,0,40.3443,38.3345,0.389483,0.0174558,28,40.93
7.28458,6.89918,5.3766,47.6709,32.7687,0.434201,0.01946,28,25.56
7.03529,11.1059,0,39.8494,42.0094,0.456031,0.0326848,28,32.96
7.2825,6.89721,5.37507,41.2501,39.1952,0.434201,0.01946,28,26.23
15.8649,0,6.70068,38.9261,38.5083,0.42851,0.0232558,28,38.63
12.5533,5.29646,4.12692,42.9085,35.1148,0.426172,0.0109051,28,33.72
7.21571,0,8.8724,51.4484,32.4635,0.496131,0.0464286,28,13.46
7.12237,5.62141,4.38337,45.5736,37.2992,0.510466,0.0198158,28,23.52
12.1591,4.70643,3.66784,43.7754,35.6912,0.388699,0.0236956,28,49.77
13.0978,5.52045,0,44.754,36.6278,0.416894,0.017835,28,40.93
6.9972,0,6.45598,47.3326,39.2143,0.649425,0.03987069,28,13.2
6.95581,8.23854,6.41851,39.4066,38.9806,0.429115,0.019037,28,29.87
7.58192,0,6.99417,51.3004,34.1235,0.64953,0.030578,28,12.46
6.5189,0,8.01916,46.5083,38.9537,0.599867,0.0332889,28,13.29
14.7293,6.81584,5.31007,40.7684,32.3764,0.312489,0.0139738,28,46.23
6.86973,8.13805,0,46.4803,38.512,0.571473,0.0106817,28,23.74
7.21243,0,8.86822,40.8542,43.0652,0.549364,0.045427,28,15.53
13.9117,0,5.0168,44.4839,36.5876,0.403353,0.0315582,28,35.87
7.53252,8.92545,6.95011,42.6907,33.9012,0.401825,0.0190753,28,28.99
6.86995,8.13889,0,46.4814,38.5098,0.530195,0.006813255,28,26.92
14.6491,0,0,46.8331,38.5178,0.569555,0.0255836,28,25.1
7.57895,0,6.99143,42.9474,42.4823,0.64953,0.030578,28,9.74
13.3503,5.14339,4.00313,44.24,33.2632,0.456167,0.019578,28,37.17
7.71394,7.24186,5.63982,46.364,33.0404,0.536698,0.0246281,28,16.5
7.20387,8.45197,6.58219,44.7988,32.9632,0.357448,0.0390525,28,36.35
6.81958,0,8.30603,44.769,40.1054,0.497331,0.0562009,28,15.42
17.6732,0,0,47.8398,34.487,0.508149,0.01790008,28,39.06
7.34714,11.4925,0,48.233,32.9273,0.511117,0.0161002,28,26.86
14.7318,0,4.81392,46.3702,34.0841,0.484669,0.0242334,28,30.12
6.73757,7.91036,6.1583,41.9068,37.2869,0.395938,0.0248745,28,44.61
15.088,7.71073,0,40.8547,36.3466,0.392379,0.009474768,28,57.22
13.0803,6.0259,4.69356,38.5723,37.628,0.338637,0.0186604,28,52.83
7.96246,0,7.27554,49.5017,35.2603,0.576508,0.0371429,28,18.03
7.87998,9.24742,7.20118,40.7624,34.909,0.410837,0.0228467,28,35.31
15.5719,0,6.19642,42.1504,36.0813,0.471872,0.0128263,28,40.06
15.049,7.69089,0,40.7469,36.5132,0.353659,0.0180894,28,61.24
6.28003,9.82444,7.65498,41.2436,34.9969,0.35823,0.0110132,28,33.31
7.97242,0,9.71548,41.2362,41.0759,0.497392,0.0345869,28,15.09
15.3113,0,6.09309,41.4511,37.1445,0.406187,0.0255954,28,37.27
13.4339,5.6363,0,42.2909,38.6389,0.433317,0.0170982,28,42.14
12.6859,5.32374,4.14868,39.9329,37.9089,0.42316,0.0127706,28,41.54
7.86245,12.3005,0,40.6764,39.1607,0.43035,0.0298332,28,37.92
15.572,0,5.58697,39.5293,39.3118,0.447693,0.0237551,28,31.18
7.48953,8.78878,0,46.5848,37.1369,0.507808,0.0326778,28,32.77
12.6301,4.86518,3.79048,41.8502,36.864,0.45622,0.01955879,28,32.4